Folder: zombocalypse-emcomms/impedance_transformer/measurements/6p_42s_on_material43_5943001301

Note: README.md
# zombocalypse-emcomms
Experiments with local wireless communication in the absence of any communication infrastructure

File: secondary_close_0.3mm.csv
Freq (MHz),re(S11),im(S11),re(Z),im(Z)
0.050,-0.99533,0.01565,0.114,0.393
0.200,-0.99255,0.06475,0.134,1.629
0.350,-0.98872,0.11261,0.123,2.838
0.500,-0.98776,0.16019,-0.017,4.028
0.650,-0.97565,0.20750,0.064,5.258
0.800,-0.95375,0.25047,0.356,6.456
0.950,-0.94753,0.29668,0.183,7.645
1.100,-0.93071,0.33871,0.248,8.815
1.250,-0.91382,0.38115,0.258,10.009
1.400,-0.89377,0.42168,0.310,11.202
1.550,-0.87272,0.46221,0.332,12.423
1.700,-0.84994,0.49939,0.384,13.601
1.850,-0.82742,0.53776,0.361,14.820
2.000,-0.80160,0.57309,0.406,16.034
2.150,-0.77603,0.60659,0.423,17.222
2.300,-0.74978,0.63718,0.459,18.375
2.450,-0.72091,0.66772,0.505,19.596
2.600,-0.69395,0.69598,0.508,20.752
2.750,-0.66301,0.72291,0.575,21.985
2.900,-0.63390,0.74851,0.587,23.174
3.050,-0.60546,0.77196,0.591,24.326
3.200,-0.57384,0.79379,0.653,25.548
3.350,-0.54294,0.81495,0.675,26.765
3.500,-0.51239,0.83437,0.692,27.966
3.650,-0.48154,0.85118,0.747,29.155
3.800,-0.45078,0.86645,0.807,30.343
3.950,-0.41952,0.88217,0.819,31.582
4.100,-0.38955,0.89515,0.859,32.764
4.250,-0.35822,0.90717,0.913,34.005
4.400,-0.32973,0.91750,0.948,35.153
4.550,-0.30045,0.92680,0.995,36.343
4.700,-0.27257,0.93478,1.041,37.493
4.850,-0.24177,0.94289,1.080,38.786
5.000,-0.21268,0.94979,1.110,40.030
5.150,-0.18565,0.95412,1.191,41.195
5.300,-0.15806,0.96008,1.177,42.428
5.450,-0.13131,0.96327,1.243,43.631
5.600,-0.10494,0.96608,1.292,44.846
5.750,-0.07949,0.96818,1.339,46.045
5.900,-0.05294,0.96875,1.434,47.322
6.050,-0.02911,0.97074,1.419,48.503
6.200,-0.00471,0.97023,1.503,49.735
6.350,0.01885,0.96967,1.561,50.957
6.500,0.04225,0.96961,1.563,52.201
6.650,0.06421,0.96772,1.639,53.401
6.800,0.08651,0.96505,1.733,54.653
6.950,0.10874,0.96283,1.776,55.934
7.100,0.12937,0.95996,1.838,57.157
7.250,0.15059,0.95660,1.902,58.451
7.400,0.16956,0.95266,1.993,59.646
7.550,0.18843,0.94897,2.051,60.863
7.700,0.20809,0.94555,2.059,62.159
7.850,0.22552,0.93987,2.218,63.369
8.000,0.24332,0.93526,2.283,64.622
8.150,0.26166,0.93095,2.297,65.940
8.300,0.27756,0.92560,2.402,67.138
8.450,0.29410,0.91993,2.500,68.419
8.600,0.31182,0.91490,2.507,69.806
8.750,0.32624,0.90964,2.580,70.988
8.900,0.34302,0.90333,2.658,72.404
9.050,0.35747,0.89784,2.711,73.656
9.200,0.37231,0.89202,2.760,74.979
9.350,0.38604,0.88660,2.791,76.233
9.500,0.39877,0.87914,3.002,77.500
9.650,0.41224,0.87328,3.043,78.811
9.800,0.42384,0.86652,3.209,80.025
9.950,0.43820,0.86123,3.133,81.453
10.100,0.44961,0.85413,3.308,82.727
10.250,0.46156,0.84736,3.420,84.069
10.400,0.47347,0.84077,3.503,85.433
10.550,0.48364,0.83463,3.607,86.649
10.700,0.49574,0.82836,3.618,88.080
10.850,0.50474,0.82163,3.812,89.273
11.000,0.51523,0.81508,3.902,90.629
11.150,0.52620,0.80848,3.956,92.069
11.300,0.53617,0.80281,3.956,93.389
11.450,0.54412,0.79574,4.206,94.615
11.600,0.55352,0.78921,4.304,95.989
11.750,0.56345,0.78232,4.392,97.473
11.900,0.57251,0.77653,4.406,98.827
12.050,0.58111,0.76919,4.605,100.270
12.200,0.58892,0.76262,4.768,101.604
12.350,0.59740,0.75701,4.764,102.973
12.500,0.60483,0.75110,4.861,104.275
12.650,0.61292,0.74403,5.029,105.775
12.800,0.62021,0.73787,5.146,107.141
12.950,0.62816,0.73108,5.272,108.672
13.100,0.63556,0.72500,5.349,110.109
13.250,0.64076,0.71917,5.589,111.282
13.400,0.64921,0.71227,5.647,112.990
13.550,0.65521,0.70597,5.856,114.369
13.700,0.66201,0.70063,5.855,115.783
13.850,0.66758,0.69492,6.018,117.104
14.000,0.67422,0.68812,6.203,118.715
14.150,0.68113,0.68163,6.307,120.366
14.300,0.68646,0.67657,6.386,121.673
14.450,0.69087,0.67045,6.714,123.004
14.600,0.69710,0.66380,6.895,124.686
14.750,0.70316,0.65924,6.788,126.119
14.900,0.70864,0.65304,6.979,127.709
15.050,0.71423,0.64734,7.073,129.284
15.200,0.71716,0.64077,7.654,130.614
15.350,0.72276,0.63491,7.761,132.281
15.500,0.72860,0.63093,7.534,133.748
15.650,0.73329,0.62386,7.937,135.523
15.800,0.73733,0.61966,7.987,136.798
15.950,0.74190,0.61338,8.281,138.508
16.100,0.74626,0.60824,8.419,140.038
16.250,0.74979,0.60200,8.871,141.644
16.400,0.75529,0.59775,8.657,143.280
16.550,0.75748,0.59257,9.157,144.545
16.700,0.76247,0.58666,9.295,146.448
16.850,0.76626,0.58184,9.451,147.986
17.000,0.77040,0.57672,9.586,149.671
17.150,0.77392,0.57108,9.929,151.382
17.300,0.77796,0.56650,9.975,153.015
17.450,0.78153,0.56099,10.279,154.782
17.600,0.78498,0.55614,10.481,156.428
17.750,0.78930,0.55093,10.561,158.349
17.900,0.79232,0.54713,10.639,159.753
18.050,0.79459,0.54151,11.237,161.439
18.200,0.79744,0.53637,11.619,163.167
18.350,0.80041,0.53171,11.879,164.844
18.500,0.80332,0.52666,12.231,166.637
18.650,0.80762,0.52277,11.998,168.472
18.800,0.80929,0.51875,12.432,169.818
18.950,0.81222,0.51401,12.704,171.643
19.100,0.81508,0.50923,13.002,173.495
19.250,0.81823,0.50411,13.298,175.544
19.400,0.81987,0.50010,13.752,176.999
19.550,0.82464,0.49544,13.487,179.371
19.700,0.82698,0.49066,13.919,181.267
19.850,0.82937,0.48726,14.016,182.812
20.000,0.83169,0.48204,14.562,184.910
20.150,0.83326,0.47744,15.196,186.680
20.300,0.83397,0.47417,15.780,187.864
20.450,0.83802,0.46889,15.822,190.532
20.600,0.83839,0.46540,16.582,191.749
20.750,0.84322,0.46061,16.223,194.563
20.900,0.84560,0.45588,16.648,196.783
21.050,0.84519,0.45367,17.373,197.435
21.200,0.84823,0.44853,17.693,200.047
21.350,0.85181,0.44416,17.592,202.594
21.500,0.85168,0.44028,18.716,203.978
21.650,0.85495,0.43622,18.637,206.420
21.800,0.85691,0.43228,19.014,208.489
21.950,0.85809,0.42874,19.576,210.212
22.100,0.85943,0.42272,20.833,213.011
22.250,0.86184,0.42041,20.549,214.676
22.400,0.86359,0.41618,21.116,216.968
22.550,0.86489,0.41146,22.039,219.382
22.700,0.86721,0.40827,22.045,221.506
22.850,0.86810,0.40557,22.517,222.982
23.000,0.86909,0.39956,24.049,226.013
23.150,0.87127,0.39789,23.610,227.511
23.300,0.87169,0.39314,25.029,229.876
23.450,0.87284,0.38913,25.876,232.187
23.600,0.87506,0.38632,25.790,234.339
23.750,0.87572,0.38203,27.004,236.711
23.900,0.87673,0.37771,28.090,239.268
24.050,0.88057,0.37595,26.754,241.609
24.200,0.87966,0.37114,29.051,243.809
24.350,0.88011,0.36712,30.381,246.138
24.500,0.88202,0.36516,30.116,247.964
24.650,0.88098,0.36042,32.614,250.169
24.800,0.88385,0.35733,32.276,253.108
24.950,0.88469,0.35568,32.478,254.412
25.100,0.88260,0.35164,35.427,255.861
25.250,0.88532,0.34794,35.445,259.247
25.400,0.88817,0.34629,34.451,261.502
25.550,0.88481,0.34196,38.470,262.632
25.700,0.88946,0.34070,36.159,265.562
25.850,0.88916,0.33754,37.818,267.424
26.000,0.88857,0.33475,39.522,268.930
26.150,0.89250,0.33102,38.749,273.277
26.300,0.89296,0.32830,39.769,275.334
26.450,0.89137,0.32790,41.041,274.815
26.600,0.89633,0.32352,39.822,280.318
26.750,0.89552,0.32198,41.183,280.990
26.900,0.89514,0.31889,43.057,282.992
27.050,0.89979,0.31415,42.165,288.923
27.200,0.89992,0.31298,42.688,289.873
27.350,0.89968,0.31082,44.040,291.375
27.500,0.90172,0.30681,44.690,295.603
27.650,0.90161,0.30688,44.736,295.488
27.800,0.90416,0.30256,45.149,300.375
27.950,0.90557,0.29884,46.143,304.250
28.100,0.90632,0.29872,45.582,304.791
28.250,0.90701,0.29323,48.270,309.866
28.400,0.90946,0.29129,47.304,313.060
28.550,0.90871,0.29025,48.603,313.516
28.700,0.91009,0.28489,50.745,319.215
28.850,0.91201,0.28257,50.455,322.608
29.000,0.91269,0.28112,50.761,324.426
29.150,0.91427,0.27615,52.540,330.285
29.300,0.91413,0.27395,54.176,332.373
29.450,0.91574,0.27206,53.882,335.396
29.600,0.91529,0.26716,57.842,340.113
29.750,0.91722,0.26672,56.140,341.979
29.900,0.91706,0.26346,58.716,345.345
30.000,0.91821,0.26153,58.928,348.299