Folder: zombocalypse-emcomms/measurements/6p_42s_on_material43_5943001301

Note: README.md
# zombocalypse-emcomms
Experiments with local wireless communication in the absence of any communication infrastructure

File: secondary_open_0.3mm.csv
Freq (MHz),re(S11),im(S11),re(Z),im(Z)
0.050,-0.97189,0.19046,0.244,4.853
0.200,-0.71077,0.68835,0.308,20.242
0.350,-0.31145,0.92511,0.916,35.916
0.500,0.04369,0.96159,1.996,52.283
0.650,0.31119,0.89858,3.733,70.097
0.800,0.49139,0.79434,7.169,89.286
0.950,0.61135,0.68392,12.808,110.524
1.100,0.68343,0.58226,22.071,132.559
1.250,0.72744,0.49603,35.085,154.848
1.400,0.75407,0.42539,51.862,176.190
1.550,0.77129,0.36526,73.146,196.671
1.700,0.78277,0.31541,98.101,215.045
1.850,0.78957,0.27327,126.899,229.724
2.000,0.79483,0.23549,160.327,241.399
2.150,0.79852,0.20232,197.137,248.164
2.300,0.80037,0.17286,236.282,247.886
2.450,0.80138,0.14666,275.831,240.578
2.600,0.80277,0.12162,317.338,226.512
2.750,0.80270,0.09972,353.703,204.041
2.900,0.80252,0.07806,387.962,173.119
3.050,0.80160,0.05802,414.316,135.784
3.200,0.80018,0.03880,432.276,93.640
3.350,0.79952,0.02150,443.128,52.871
3.500,0.79774,0.00398,444.224,9.714
3.650,0.79599,-0.01208,438.463,-28.936
3.800,0.79306,-0.02889,423.988,-66.160
3.950,0.79124,-0.04423,408.444,-97.133
4.100,0.78783,-0.05944,387.019,-122.432
4.250,0.78500,-0.07416,365.659,-143.365
4.400,0.78259,-0.08836,344.759,-160.439
4.550,0.77848,-0.10302,321.151,-172.612
4.700,0.77519,-0.11612,301.132,-181.366
4.850,0.77087,-0.12987,280.317,-187.221
5.000,0.76584,-0.14361,260.336,-190.323
5.150,0.76157,-0.15619,243.474,-192.248
5.300,0.75708,-0.17032,225.991,-193.505
5.450,0.75175,-0.18288,211.115,-192.359
5.600,0.74643,-0.19595,196.916,-190.806
5.750,0.74041,-0.20853,184.132,-188.085
5.900,0.73446,-0.22122,172.305,-185.197
6.050,0.72783,-0.23236,162.522,-181.433
6.200,0.72107,-0.24562,151.934,-177.819
6.350,0.71389,-0.25661,143.703,-173.728
6.500,0.70674,-0.26932,134.982,-169.880
6.650,0.69877,-0.28111,127.441,-165.593
6.800,0.69065,-0.29314,120.321,-161.394
6.950,0.68245,-0.30540,113.595,-157.335
7.100,0.67273,-0.31659,107.846,-152.693
7.250,0.66413,-0.32866,102.099,-148.831
7.400,0.65440,-0.34001,97.036,-144.658
7.550,0.64376,-0.35070,92.555,-140.339
7.700,0.63329,-0.36104,88.471,-136.331
7.850,0.62225,-0.37316,83.980,-132.353
8.000,0.61025,-0.38402,80.187,-128.274
8.150,0.59868,-0.39399,76.885,-124.569
8.300,0.58582,-0.40453,73.565,-120.688
8.450,0.57229,-0.41547,70.295,-116.853
8.600,0.56009,-0.42468,67.664,-113.590
8.750,0.54505,-0.43546,64.710,-109.797
8.900,0.52982,-0.44551,62.067,-106.188
9.050,0.51501,-0.45298,60.124,-102.854
9.200,0.49933,-0.46177,57.926,-99.541
9.350,0.48250,-0.47085,55.719,-96.189
9.500,0.46650,-0.47898,53.785,-93.179
9.650,0.44909,-0.48750,51.803,-90.085
9.800,0.43188,-0.49427,50.186,-87.164
9.950,0.41255,-0.50179,48.419,-84.068
10.100,0.39372,-0.50802,46.903,-81.197
10.250,0.37332,-0.51515,45.224,-78.277
10.400,0.35285,-0.52034,43.850,-75.461
10.550,0.33263,-0.52489,42.576,-72.810
10.700,0.31047,-0.53011,41.151,-70.076
10.850,0.28762,-0.53344,39.942,-67.349
11.000,0.26388,-0.53552,38.833,-64.626
11.150,0.24068,-0.53749,37.736,-62.105
11.300,0.21678,-0.53844,36.701,-59.604
11.450,0.19181,-0.53758,35.780,-57.058
11.600,0.16733,-0.53593,34.918,-54.656
11.750,0.14111,-0.53441,33.935,-52.225
11.900,0.11527,-0.53113,33.086,-49.879
12.050,0.09003,-0.52644,32.337,-47.634
12.200,0.06256,-0.52015,31.562,-45.256
12.350,0.03475,-0.51292,30.788,-42.930
12.500,0.00832,-0.50404,30.137,-40.731
12.650,-0.01997,-0.49411,29.407,-38.467
12.800,-0.04667,-0.48296,28.770,-36.346
12.950,-0.07348,-0.47006,28.167,-34.228
13.100,-0.10196,-0.45558,27.501,-32.041
13.250,-0.12739,-0.43972,26.989,-30.028
13.400,-0.15489,-0.42212,26.384,-27.918
13.550,-0.18078,-0.40223,25.884,-25.850
13.700,-0.20543,-0.38146,25.407,-23.862
13.850,-0.22813,-0.35892,25.017,-21.923
14.000,-0.25231,-0.33491,24.523,-19.930
14.150,-0.27477,-0.31061,24.049,-18.043
14.300,-0.29645,-0.28315,23.622,-16.079
14.450,-0.31730,-0.25459,23.180,-14.143
14.600,-0.33479,-0.22515,22.845,-12.287
14.750,-0.35324,-0.19395,22.409,-10.378
14.900,-0.36774,-0.16231,22.098,-8.556
15.050,-0.38062,-0.12916,21.803,-6.717
15.200,-0.39435,-0.09642,21.377,-4.936
15.350,-0.40394,-0.06210,21.089,-3.144
15.500,-0.41099,-0.02685,20.847,-1.348
15.650,-0.41963,0.00862,20.438,0.428
15.800,-0.42154,0.04452,20.277,2.201
15.950,-0.42453,0.07940,19.981,3.901
16.100,-0.42544,0.11454,19.704,5.601
16.250,-0.42282,0.15189,19.491,7.418
16.400,-0.42108,0.18596,19.184,9.053
16.550,-0.41536,0.22076,18.975,10.759
16.700,-0.40584,0.25431,18.878,12.460
16.850,-0.40028,0.28695,18.536,14.045
17.000,-0.38770,0.31904,18.444,15.736
17.150,-0.37473,0.35115,18.286,17.442
17.300,-0.36381,0.38139,18.005,19.018
17.450,-0.34778,0.40937,17.929,20.633
17.600,-0.33040,0.43723,17.838,22.295
17.750,-0.31863,0.46553,17.432,23.806
17.900,-0.29630,0.48763,17.580,25.422
18.050,-0.27873,0.51251,17.379,27.005
18.200,-0.26183,0.53797,17.061,28.591
18.350,-0.23841,0.55510,17.239,30.139
18.500,-0.21853,0.57599,17.078,31.708
18.650,-0.20206,0.59570,16.788,33.098
18.800,-0.17540,0.60858,17.092,34.738
18.950,-0.15704,0.62894,16.715,36.265
19.100,-0.13630,0.64416,16.601,37.756
19.250,-0.11393,0.65102,16.916,39.108
19.400,-0.09458,0.67171,16.366,40.727
19.550,-0.07319,0.68120,16.420,42.159
19.700,-0.05226,0.68673,16.648,43.496
19.850,-0.02823,0.70750,16.005,45.416
20.000,-0.00918,0.71046,16.254,46.643
20.150,0.01043,0.71610,16.323,47.995
20.300,0.03599,0.73222,15.782,49.965
20.450,0.05064,0.73069,16.148,50.912
20.600,0.07175,0.73688,16.084,52.461
20.750,0.09667,0.74795,15.676,54.379
20.900,0.10975,0.74613,15.981,55.300
21.050,0.13063,0.75049,15.909,56.896
21.200,0.15476,0.75698,15.652,58.797
21.350,0.16266,0.75503,15.869,59.395
21.500,0.18956,0.75907,15.729,61.563
21.650,0.20712,0.76013,15.720,63.005
21.800,0.21893,0.76016,15.751,63.991
21.950,0.24090,0.76004,15.786,65.867
22.100,0.25793,0.75901,15.858,67.362
22.250,0.26688,0.75961,15.782,68.158
22.400,0.29476,0.75623,15.957,70.725
22.550,0.30384,0.75622,15.892,71.577
22.700,0.31577,0.75425,15.978,72.729
22.850,0.33863,0.74865,16.277,75.023
23.000,0.34522,0.74919,16.138,75.674
23.150,0.36038,0.74687,16.149,77.242
23.300,0.38059,0.73861,16.660,79.488
23.450,0.38576,0.74174,16.228,79.975
23.600,0.39973,0.73483,16.675,81.620
23.750,0.41652,0.72872,16.952,83.618
23.900,0.42103,0.73109,16.571,84.062
24.050,0.43602,0.72278,17.102,85.995
24.200,0.44912,0.71857,17.196,87.650
24.350,0.45605,0.71812,17.023,88.484
24.500,0.46750,0.70998,17.607,90.142
24.650,0.47790,0.70405,17.958,91.640
24.800,0.48550,0.70802,17.166,92.430
24.950,0.49558,0.69331,18.618,94.312
25.100,0.50431,0.69393,18.160,95.418
25.250,0.51178,0.69293,17.949,96.440
25.400,0.51989,0.68158,19.075,98.060
25.550,0.52925,0.68254,18.475,99.283
25.700,0.53608,0.68234,18.142,100.224
25.850,0.54045,0.66574,20.224,101.733
26.000,0.55288,0.67435,18.297,103.008
26.150,0.55765,0.66907,18.759,104.001
26.300,0.56258,0.66067,19.672,105.232
26.450,0.57606,0.66378,18.341,107.005
26.600,0.58024,0.65874,18.799,107.966
26.750,0.58404,0.65233,19.494,108.985
26.900,0.59900,0.65310,18.274,111.196
27.050,0.59986,0.64780,19.018,111.736
27.200,0.60706,0.64301,19.196,113.232
27.350,0.62004,0.64068,18.480,115.471
27.500,0.61935,0.63715,19.101,115.666
27.650,0.62739,0.63246,19.151,117.373
27.800,0.63719,0.62952,18.724,119.243
27.950,0.63955,0.62686,18.936,119.887
28.100,0.64730,0.62341,18.747,121.514
28.250,0.65526,0.61850,18.757,123.357
28.400,0.65851,0.61623,18.800,124.151
28.550,0.66664,0.61147,18.731,126.069
28.700,0.67274,0.60778,18.682,127.552
28.850,0.67742,0.60346,18.894,128.884
29.000,0.68514,0.59934,18.695,130.762
29.150,0.69011,0.59534,18.795,132.163
29.300,0.69359,0.59100,19.140,133.358
29.450,0.70201,0.58599,18.950,135.588
29.600,0.70589,0.58258,19.057,136.789
29.750,0.71043,0.57853,19.185,138.224
29.900,0.71745,0.57285,19.255,140.407
30.000,0.71693,0.57242,19.416,140.371